pic,correct_response,shown_before,trials.thisRepN,trials.thisTrialN,trials.thisN,trials.thisIndex,trials_2.thisRepN,trials_2.thisTrialN,trials_2.thisN,trials_2.thisIndex,thisRow.t,notes,trial.started,fixation.started,image.started,fixation.stopped,image.stopped,trial.stopped,break_4.started,key_instruct.started,break_4.stopped,key_instruct.keys,key_instruct.rt,key_instruct.duration,break_2.started,text_countdown.started,break_2.stopped,instructions.started,text.started,key_resp.started,instructions.stopped,key_resp.keys,key_resp.rt,key_resp.duration,test.started,img.started,key_resp_2.started,test.stopped,key_resp_2.keys,key_resp_2.rt,key_resp_2.duration,participant,session,date,expName,psychopyVersion,frameRate,expStart,
None,None,None,0,0,0,14,,,,,0.1317732079187408,,0.1044619579333812,0.1317732079187408,0.4982881660107523,0.631038915948011,2.021917499951087,1.9826600829837844,,,,,,,,,,,,,,,,,,,,,,,,569072,001,2023-11-27_15h55.54.803,experiment,2023.2.2,None,2023-11-27 15h56.04.546447 +0530,
Col2.JPG,c,1,0,1,1,7,,,,,2.021917499951087,,1.983820416033268,2.021917499951087,2.50315949996002,2.5213227909989655,3.9980568329337984,3.987909583025612,,,,,,,,,,,,,,,,,,,,,,,,569072,001,2023-11-27_15h55.54.803,experiment,2023.2.2,None,2023-11-27 15h56.04.546447 +0530,
None,None,None,0,2,2,18,,,,,3.9980568329337984,,3.9885814579902217,3.9980568329337984,4.498698457959108,4.486330499988981,6.021099332952872,5.982626416021958,,,,,,,,,,,,,,,,,,,,,,,,569072,001,2023-11-27_15h55.54.803,experiment,2023.2.2,None,2023-11-27 15h56.04.546447 +0530,
Col1.JPG,c,1,0,3,3,6,,,,,6.021099332952872,,5.983390374924056,6.021099332952872,6.497406999929808,6.514717207988724,7.9872009579557925,7.981281665968709,,,,,,,,,,,,,,,,,,,,,,,,569072,001,2023-11-27_15h55.54.803,experiment,2023.2.2,None,2023-11-27 15h56.04.546447 +0530,
None,None,None,0,4,4,21,,,,,7.9872009579557925,,7.981740957940929,7.9982978330226615,8.498610290931538,8.486407165997662,9.989904250018299,9.982758165919222,,,,,,,,,,,,,,,,,,,,,,,,569072,001,2023-11-27_15h55.54.803,experiment,2023.2.2,None,2023-11-27 15h56.04.546447 +0530,
None,None,None,0,5,5,22,,,,,9.989904250018299,,9.983413874986582,9.99744412500877,10.498637082986534,10.486984999966808,12.029019374982454,11.983398832962848,,,,,,,,,,,,,,,,,,,,,,,,569072,001,2023-11-27_15h55.54.803,experiment,2023.2.2,None,2023-11-27 15h56.04.546447 +0530,
Col4.JPG,c,1,0,6,6,9,,,,,12.029019374982454,,11.985554540995508,12.029019374982454,12.498054457944818,12.521555582992733,14.007890207925811,13.982410540920682,,,,,,,,,,,,,,,,,,,,,,,,569072,001,2023-11-27_15h55.54.803,experiment,2023.2.2,None,2023-11-27 15h56.04.546447 +0530,
Col3.JPG,c,1,0,7,7,8,,,,,14.007890207925811,,13.982957915985025,14.007890207925811,14.497371915960684,14.50440500001423,15.997908915975131,15.983282582950778,,,,,,,,,,,,,,,,,,,,,,,,569072,001,2023-11-27_15h55.54.803,experiment,2023.2.2,None,2023-11-27 15h56.04.546447 +0530,
Bnw3 .JPG,b,1,0,8,8,2,,,,,15.997908915975131,,15.984046540921554,16.003007082967088,16.498628499917686,16.498628499917686,17.989163290942088,17.98173062503338,,,,,,,,,,,,,,,,,,,,,,,,569072,001,2023-11-27_15h55.54.803,experiment,2023.2.2,None,2023-11-27 15h56.04.546447 +0530,
None,None,None,0,9,9,17,,,,,17.989163290942088,,17.983065958018415,17.998339124955237,18.49887858296279,18.487422041012906,20.025598624954,19.983040582970716,,,,,,,,,,,,,,,,,,,,,,,,569072,001,2023-11-27_15h55.54.803,experiment,2023.2.2,None,2023-11-27 15h56.04.546447 +0530,
Col5.JPG,c,1,0,10,10,10,,,,,20.025598624954,,19.983684791019186,20.025598624954,20.498261041007936,20.521422790945508,21.98947541601956,21.98288979101926,,,,,,,,,,,,,,,,,,,,,,,,569072,001,2023-11-27_15h55.54.803,experiment,2023.2.2,None,2023-11-27 15h56.04.546447 +0530,
None,None,None,0,11,11,19,,,,,21.98947541601956,,21.983471291023307,21.99787366599776,22.498896291013807,22.487070665927604,23.989512374973856,23.98301545798313,,,,,,,,,,,,,,,,,,,,,,,,569072,001,2023-11-27_15h55.54.803,experiment,2023.2.2,None,2023-11-27 15h56.04.546447 +0530,
None,None,None,0,12,12,16,,,,,23.989512374973856,,23.983667540946044,23.9983828329714,24.499368499964476,24.48678195802495,26.007890249951743,25.98330629093107,,,,,,,,,,,,,,,,,,,,,,,,569072,001,2023-11-27_15h55.54.803,experiment,2023.2.2,None,2023-11-27 15h56.04.546447 +0530,
Bnw2.JPG,b,1,0,13,13,1,,,,,26.007890249951743,,25.983954875031486,26.007890249951743,26.497974290978163,26.504887250019237,27.990116790984757,27.982041290961206,,,,,,,,,,,,,,,,,,,,,,,,569072,001,2023-11-27_15h55.54.803,experiment,2023.2.2,None,2023-11-27 15h56.04.546447 +0530,
None,None,None,0,14,14,15,,,,,27.990116790984757,,27.983398749958724,27.99794937495608,28.499028207967058,28.48733974993229,30.00372795795556,29.98351512500085,,,,,,,,,,,,,,,,,,,,,,,,569072,001,2023-11-27_15h55.54.803,experiment,2023.2.2,None,2023-11-27 15h56.04.546447 +0530,
Col6.JPG,c,1,0,15,15,11,,,,,30.00372795795556,,29.984215750009753,30.015554415993392,30.498539833002724,30.506065624998882,32.025584082934074,31.98264562501572,,,,,,,,,,,,,,,,,,,,,,,,569072,001,2023-11-27_15h55.54.803,experiment,2023.2.2,None,2023-11-27 15h56.04.546447 +0530,
Bnw4.JPG,b,1,0,16,16,3,,,,,32.025584082934074,,31.98334124998655,32.025584082934074,32.498099707998335,32.525338665931486,34.002203374984674,33.98292054096237,,,,,,,,,,,,,,,,,,,,,,,,569072,001,2023-11-27_15h55.54.803,experiment,2023.2.2,None,2023-11-27 15h56.04.546447 +0530,
Bnw1.jpeg,b,1,0,17,17,0,,,,,34.002203374984674,,33.98344433296006,34.01567887503188,34.49821258301381,34.50564149999991,36.001710249925964,35.98265958297998,,,,,,,,,,,,,,,,,,,,,,,,569072,001,2023-11-27_15h55.54.803,experiment,2023.2.2,None,2023-11-27 15h56.04.546447 +0530,
Bnw5.JPG,b,1,0,18,18,4,,,,,36.001710249925964,,35.983410457964055,36.0156105409842,36.49813045794144,36.50520799995866,37.98884587502107,37.98271112493239,,,,,,,,,,,,,,,,,,,,,,,,569072,001,2023-11-27_15h55.54.803,experiment,2023.2.2,None,2023-11-27 15h56.04.546447 +0530,
None,None,None,0,19,19,13,,,,,37.98884587502107,,37.98328124999534,37.99832008301746,38.50141729100142,38.48755404097028,40.00160045793746,39.990053790970705,,,,,,,,,,,,,,,,,,,,,,,,569072,001,2023-11-27_15h55.54.803,experiment,2023.2.2,None,2023-11-27 15h56.04.546447 +0530,
None,None,None,0,20,20,20,,,,,40.00160045793746,,39.991108707967214,40.00160045793746,40.4992300409358,40.4992300409358,41.99282308295369,41.98346037499141,,,,,,,,,,,,,,,,,,,,,,,,569072,001,2023-11-27_15h55.54.803,experiment,2023.2.2,None,2023-11-27 15h56.04.546447 +0530,
None,None,None,0,21,21,12,,,,,41.99282308295369,,41.9842011249857,41.99282308295369,42.49931287497748,42.48680766602047,44.02580537495669,43.98397883295547,,,,,,,,,,,,,,,,,,,,,,,,569072,001,2023-11-27_15h55.54.803,experiment,2023.2.2,None,2023-11-27 15h56.04.546447 +0530,
Bnw6.JPG,b,1,0,22,22,5,,,,,44.02580537495669,,43.98471762496047,44.02580537495669,44.498252624995075,44.52155645797029,45.988726790994406,45.98288983292878,,,,,,,,,,,,,,,,,,,,,,,,569072,001,2023-11-27_15h55.54.803,experiment,2023.2.2,None,2023-11-27 15h56.04.546447 +0530,
,,,,,,,,,,,,,,,,,,,45.983159041032195,46.05811958294362,141.2713581250282,space,94.91094554204028,0.29666291596367955,,,,,,,,,,,,,,,,,,569072,001,2023-11-27_15h55.54.803,experiment,2023.2.2,None,2023-11-27 15h56.04.546447 +0530,
,,,,,,,,,,,,,,,,,,,,,,,,,141.27158704097383,141.3483786249999,151.2749722499866,151.27504087495618,151.28938654100057,151.28938654100057,152.16908612498082,space,0.875403541023843,None,,,,,,,,569072,001,2023-11-27_15h55.54.803,experiment,2023.2.2,None,2023-11-27 15h56.04.546447 +0530,
Col8.JPG,c,0,,,,,0,0,0,18,152.25432349997573,,,,,,,,,,,,,,,,,,,,,,,,152.22647658293135,152.25432349997573,152.25432349997573,153.95966708299238,y,1.6985549579840153,None,569072,001,2023-11-27_15h55.54.803,experiment,2023.2.2,None,2023-11-27 15h56.04.546447 +0530,
Col6.JPG,c,1,,,,,0,1,1,17,153.97817362495698,,,,,,,,,,,,,,,,,,,,,,,,153.96218295802828,153.97817362495698,153.97817362495698,154.63683304097503,y,0.6570009159622714,None,569072,001,2023-11-27_15h55.54.803,experiment,2023.2.2,None,2023-11-27 15h56.04.546447 +0530,
Col2.JPG,c,1,,,,,0,2,2,13,154.66168458294123,,,,,,,,,,,,,,,,,,,,,,,,154.63767008297145,154.66168458294123,154.66168458294123,155.20250741601922,y,0.5324989170767367,None,569072,001,2023-11-27_15h55.54.803,experiment,2023.2.2,None,2023-11-27 15h56.04.546447 +0530,
Col10.JPG,c,0,,,,,0,3,3,20,155.2312119579874,,,,,,,,,,,,,,,,,,,,,,,,155.20337083295453,155.2312119579874,155.2312119579874,155.63660191593226,n,0.40395808301400393,None,569072,001,2023-11-27_15h55.54.803,experiment,2023.2.2,None,2023-11-27 15h56.04.546447 +0530,
Bnw4.JPG,b,1,,,,,0,4,4,3,155.67502929095645,,,,,,,,,,,,,,,,,,,,,,,,155.63732166599948,155.67502929095645,155.67502929095645,155.94385604094714,y,0.26167274999897927,None,569072,001,2023-11-27_15h55.54.803,experiment,2023.2.2,None,2023-11-27 15h56.04.546447 +0530,
Bnw2.JPG,b,1,,,,,0,5,5,1,155.9657985829981,,,,,,,,,,,,,,,,,,,,,,,,155.94474829093087,155.9657985829981,155.9657985829981,156.15943400003016,n,0.18697254091966897,None,569072,001,2023-11-27_15h55.54.803,experiment,2023.2.2,None,2023-11-27 15h56.04.546447 +0530,
Bnw9.JPG,b,0,,,,,0,6,6,8,156.1848932079738,,,,,,,,,,,,,,,,,,,,,,,,156.16012074996252,156.1848932079738,156.1848932079738,156.31987712497357,y,0.12553391605615616,None,569072,001,2023-11-27_15h55.54.803,experiment,2023.2.2,None,2023-11-27 15h56.04.546447 +0530,
Bnw12.JPG,b,0,,,,,0,7,7,11,156.3406270829728,,,,,,,,,,,,,,,,,,,,,,,,156.32067229098175,156.3406270829728,156.3406270829728,156.46886683302,n,0.12101387500297278,None,569072,001,2023-11-27_15h55.54.803,experiment,2023.2.2,None,2023-11-27 15h56.04.546447 +0530,
Bnw10.JPG,b,0,,,,,0,8,8,9,156.59572916594334,,,,,,,,,,,,,,,,,,,,,,,,156.46956608293112,156.59572916594334,156.59572916594334,156.63524516602047,y,0.03321520797908306,None,569072,001,2023-11-27_15h55.54.803,experiment,2023.2.2,None,2023-11-27 15h56.04.546447 +0530,
Bnw7.JPG,b,0,,,,,0,9,9,6,156.65957216592506,,,,,,,,,,,,,,,,,,,,,,,,156.63569683302194,156.65957216592506,156.65957216592506,156.74172383302357,n,0.07678170793224126,None,569072,001,2023-11-27_15h55.54.803,experiment,2023.2.2,None,2023-11-27 15h56.04.546447 +0530,
Col5.JPG,c,1,,,,,0,10,10,16,156.76212187495548,,,,,,,,,,,,,,,,,,,,,,,,156.74208187498152,156.76212187495548,156.76212187495548,157.01881295791827,n,0.24990741699002683,None,569072,001,2023-11-27_15h55.54.803,experiment,2023.2.2,None,2023-11-27 15h56.04.546447 +0530,
Bnw8.JPG,b,0,,,,,0,11,11,7,157.0455802079523,,,,,,,,,,,,,,,,,,,,,,,,157.01941608299967,157.0455802079523,157.0455802079523,157.1865711249411,y,0.1315455000149086,None,569072,001,2023-11-27_15h55.54.803,experiment,2023.2.2,None,2023-11-27 15h56.04.546447 +0530,
Col12.JPG,c,0,,,,,0,12,12,22,157.23114795796573,,,,,,,,,,,,,,,,,,,,,,,,157.1872971249977,157.23114795796573,157.23114795796573,157.31910075002816,n,0.08284637494944036,None,569072,001,2023-11-27_15h55.54.803,experiment,2023.2.2,None,2023-11-27 15h56.04.546447 +0530,
Col3.JPG,c,1,,,,,0,13,13,14,157.3367453329265,,,,,,,,,,,,,,,,,,,,,,,,157.31962079100776,157.3367453329265,157.3367453329265,157.44200441602152,y,0.09896316600497812,None,569072,001,2023-11-27_15h55.54.803,experiment,2023.2.2,None,2023-11-27 15h56.04.546447 +0530,
Col9.JPG,c,0,,,,,0,14,14,19,157.47507054102607,,,,,,,,,,,,,,,,,,,,,,,,157.4425813750131,157.47507054102607,157.47507054102607,157.56948720791843,n,0.09340745897497982,None,569072,001,2023-11-27_15h55.54.803,experiment,2023.2.2,None,2023-11-27 15h56.04.546447 +0530,
Bnw5.JPG,b,1,,,,,0,15,15,4,157.58664020802826,,,,,,,,,,,,,,,,,,,,,,,,157.56998741591815,157.58664020802826,157.58664020802826,157.76271824992727,y,0.1735572919715196,None,569072,001,2023-11-27_15h55.54.803,experiment,2023.2.2,None,2023-11-27 15h56.04.546447 +0530,
Col4.JPG,c,1,,,,,0,16,16,15,157.7937208749354,,,,,,,,,,,,,,,,,,,,,,,,157.7633668750059,157.7937208749354,157.7937208749354,157.81958583300002,n,0.021357750054448843,None,569072,001,2023-11-27_15h55.54.803,experiment,2023.2.2,None,2023-11-27 15h56.04.546447 +0530,
Col11.JPG,c,0,,,,,0,17,17,21,157.84992483293172,,,,,,,,,,,,,,,,,,,,,,,,157.8202904999489,157.84992483293172,157.84992483293172,158.0186521660071,y,0.16254016594029963,None,569072,001,2023-11-27_15h55.54.803,experiment,2023.2.2,None,2023-11-27 15h56.04.546447 +0530,
Bnw3 .JPG,b,1,,,,,0,18,18,2,158.03989933303092,,,,,,,,,,,,,,,,,,,,,,,,158.01925549993757,158.03989933303092,158.03989933303092,158.0696544579696,n,0.028723750030621886,None,569072,001,2023-11-27_15h55.54.803,experiment,2023.2.2,None,2023-11-27 15h56.04.546447 +0530,
Col1.JPG,c,1,,,,,0,19,19,12,158.09279108291958,,,,,,,,,,,,,,,,,,,,,,,,158.07015970803332,158.09279108291958,158.09279108291958,158.268544999999,n,0.17225116700865328,None,569072,001,2023-11-27_15h55.54.803,experiment,2023.2.2,None,2023-11-27 15h56.04.546447 +0530,
Bnw1.jpeg,b,1,,,,,0,20,20,0,158.28611308301333,,,,,,,,,,,,,,,,,,,,,,,,158.26912795798853,158.28611308301333,158.28611308301333,158.42690083303023,y,0.1340042499359697,None,569072,001,2023-11-27_15h55.54.803,experiment,2023.2.2,None,2023-11-27 15h56.04.546447 +0530,
Bnw6.JPG,b,1,,,,,0,21,21,5,158.45582533301786,,,,,,,,,,,,,,,,,,,,,,,,158.42759516602382,158.45582533301786,158.45582533301786,158.542273290921,n,0.0800044999923557,None,569072,001,2023-11-27_15h55.54.803,experiment,2023.2.2,None,2023-11-27 15h56.04.546447 +0530,
Bnw11.JPG,b,0,,,,,0,22,22,10,158.57898658292834,,,,,,,,,,,,,,,,,,,,,,,,158.54284579097293,158.57898658292834,158.57898658292834,158.67685391602572,y,0.09336770803201944,None,569072,001,2023-11-27_15h55.54.803,experiment,2023.2.2,None,2023-11-27 15h56.04.546447 +0530,
Col7.jpg,c,0,,,,,0,23,23,23,158.74702016601805,,,,,,,,,,,,,,,,,,,,,,,,158.67742883297615,158.74702016601805,158.74702016601805,158.80792591592763,n,0.057003790978342295,None,569072,001,2023-11-27_15h55.54.803,experiment,2023.2.2,None,2023-11-27 15h56.04.546447 +0530,
